BEGIN IONS
TITLE=id=PXD000021;PRIDE_Exp_Complete_Ac_27179.xml;spectrum=0
PEPMASS=412.76431
CHARGE=2+
160.028	1.082
202.046	3.894
668.771	2.356
478.125	0.863
348.301	14.116
471.000	0.569
394.875	249.604
306.137	7.132
300.023	13.189
405.657	9.587
379.007	3.566
270.024	0.560
393.169	60.734
574.922	2.971
766.887	2.430
314.074	6.093
296.307	5.654
380.976	23.021
354.933	10.526
351.889	75.435
494.109	0.604
586.867	4.557
430.789	6.053
626.678	0.658
449.031	2.601
283.059	3.552
359.843	3.161
663.051	2.642
421.307	7.867
415.902	0.778
702.360	0.518
507.383	0.516
464.412	3.383
269.209	4.704
264.307	3.940
291.140	10.190
199.259	2.077
234.176	3.718
369.920	31.372
302.953	2.457
783.311	0.782
375.502	22.371
426.153	0.344
421.947	6.589
692.937	1.044
205.952	1.167
602.242	1.993
163.098	6.337
413.064	18.868
194.051	3.500
723.308	6.061
403.302	140.232
764.933	1.730
232.448	2.428
279.961	8.401
305.108	3.864
555.121	2.253
323.898	29.926
364.172	10.723
155.344	0.561
382.177	79.961
221.106	2.115
613.810	0.951
412.134	95.972
590.045	0.645
324.764	21.496
177.111	0.691
401.147	9.509
389.269	88.647
396.036	22.473
321.929	61.505
512.068	0.387
518.778	1.829
361.817	11.586
282.196	1.808
261.198	3.546
285.264	2.927
321.149	17.409
337.929	17.679
251.297	2.067
283.952	5.752
725.152	1.346
304.209	1.337
385.083	21.728
770.423	2.088
634.334	1.433
605.895	1.125
259.526	0.387
327.468	6.748
341.866	1.937
579.921	0.695
371.928	30.357
403.998	103.412
316.999	7.355
307.929	7.191
339.984	20.761
183.961	1.127
236.953	0.734
424.093	2.451
206.974	2.600
224.138	3.763
309.026	15.416
147.997	0.876
364.899	9.100
249.970	2.726
295.075	7.224
267.887	1.298
217.198	1.513
362.426	0.212
528.693	2.645
299.212	3.428
197.715	3.421
329.087	13.097
376.679	9.230
407.901	8.278
743.587	3.466
170.069	0.703
537.579	1.563
353.901	28.887
350.797	155.945
241.039	8.159
389.938	33.172
277.989	1.468
243.141	0.907
173.038	0.603
332.228	3.315
333.242	0.879
355.727	27.296
193.063	1.342
336.857	26.861
253.946	10.652
496.829	1.506
385.839	10.320
402.565	107.001
675.383	2.946
411.309	14.519
277.211	0.800
154.152	0.834
316.199	21.449
291.941	15.371
429.721	3.993
393.997	268.390
497.706	0.386
301.225	21.581
345.687	1.212
204.097	2.989
543.914	0.909
262.602	5.806
286.173	4.318
335.885	25.108
571.833	1.640
183.151	0.393
312.077	2.646
325.799	5.450
240.244	4.367
315.595	11.671
373.277	8.933
273.043	3.484
212.016	1.203
339.006	34.992
289.954	14.608
400.485	20.353
260.399	6.371
781.010	0.905
711.502	0.602
293.916	10.291
238.920	6.125
238.075	3.844
572.670	0.651
408.702	5.383
705.598	3.276
358.022	11.808
203.144	0.474
340.835	10.168
252.107	4.556
287.070	2.420
349.877	177.963
167.560	0.777
200.122	1.645
302.143	1.299
267.094	1.174
157.047	1.738
398.007	76.562
386.852	2.373
484.772	3.195
347.135	4.566
215.069	0.604
709.731	1.341
194.983	1.993
244.107	4.263
366.880	146.481
320.030	13.838
365.961	185.817
162.154	0.746
388.656	67.703
189.001	3.539
165.018	0.474
306.897	6.274
397.010	98.547
322.854	106.497
310.017	13.588
720.640	1.785
276.464	4.246
414.387	8.704
410.702	10.708
415.273	1.331
651.571	2.646
313.032	3.476
275.058	4.722
146.101	2.123
368.765	77.338
318.088	3.258
342.694	1.211
213.188	7.505
190.018	0.648
377.525	15.186
391.334	62.034
378.332	3.037
326.517	3.224
481.840	2.062
367.724	89.997
406.597	9.576
138.874	0.517
152.964	1.296
710.445	1.653
363.099	6.765
297.930	2.505
334.883	1.426
689.199	0.951
627.366	0.647
334.117	5.228
180.098	0.821
311.163	8.897
447.955	7.302
399.659	42.367
281.197	3.241
670.632	1.990
383.985	48.775
374.108	10.230
383.053	32.851
227.147	3.545
226.095	2.914
370.967	53.138
431.761	1.312
683.711	3.073
718.138	2.903
265.022	2.042
288.876	1.166
392.160	128.030
356.800	16.189
274.128	3.941
245.271	1.596
642.052	0.775
272.196	7.823
255.078	11.402
233.083	0.874
540.340	3.118
141.050	0.820
235.206	1.125
380.309	14.557
495.876	0.733
409.641	3.718
331.471	8.510
519.928	1.873
624.754	1.301
352.968	90.694
252.885	2.727
451.744	0.738
292.878	3.927
END IONS
BEGIN IONS
TITLE=id=PXD000021;PRIDE_Exp_Complete_Ac_27179.xml;spectrum=1
PEPMASS=412.76407
CHARGE=2+
473.315	0.824
227.015	3.894
380.534	7.325
643.545	1.820
253.873	15.088
187.057	0.389
284.091	0.753
672.449	1.344
263.045	8.762
409.065	6.467
183.163	1.053
337.036	10.677
241.108	1.346
312.795	4.245
345.081	5.945
270.278	0.693
336.139	27.816
404.288	6.614
264.981	1.170
184.054	1.517
605.941	1.514
254.961	1.603
317.018	5.472
460.161	1.046
323.987	22.376
741.934	1.702
240.255	1.401
398.846	33.009
402.663	103.652
192.082	0.711
394.871	233.973
783.528	2.224
393.152	35.141
668.634	1.472
335.212	9.003
503.906	4.255
487.879	1.386
220.024	1.217
252.873	3.902
325.858	2.646
169.005	0.842
357.806	11.108
607.506	0.877
280.531	2.125
422.174	0.981
369.774	38.363
411.674	38.356
573.065	1.957
410.983	16.139
203.202	1.217
665.882	2.214
353.874	14.713
331.743	1.128
191.147	2.037
410.241	7.517
372.982	7.777
431.715	3.071
449.909	1.046
305.790	10.010
430.019	2.940
185.152	1.226
359.235	12.954
275.958	1.344
295.029	3.385
391.350	23.536
210.035	1.972
768.027	2.944
679.681	0.477
624.512	0.749
326.829	0.747
752.645	1.761
195.079	1.332
306.419	2.367
580.707	0.476
318.914	0.737
176.011	0.477
466.829	2.574
395.965	20.803
413.785	4.358
348.849	8.360
538.679	0.347
501.654	1.345
273.195	0.520
222.703	0.561
234.056	3.512
266.851	0.868
259.833	1.519
205.961	0.953
211.110	1.131
263.974	8.258
698.200	0.910
312.128	4.404
615.263	0.874
165.627	1.129
375.979	14.779
397.924	42.951
242.020	0.563
243.160	1.604
375.025	7.235
159.157	3.112
370.867	69.203
495.441	2.576
366.057	193.478
524.814	1.128
652.812	2.158
302.795	4.336
324.994	15.819
382.053	87.019
201.845	0.868
341.080	2.118
531.891	3.904
291.114	7.464
396.978	85.618
641.682	2.536
296.769	0.390
526.953	1.907
170.845	2.596
492.229	3.881
249.852	0.998
302.140	2.342
339.976	16.131
286.400	0.564
366.922	144.699
320.935	11.844
159.901	0.954
316.055	36.245
383.163	42.363
261.011	0.868
309.903	9.029
321.815	45.355
282.355	4.804
291.941	8.900
427.267	1.520
290.074	10.459
389.870	46.569
160.982	1.618
119.204	1.738
401.674	28.250
327.814	2.526
204.120	1.604
285.705	4.668
376.986	23.883
695.239	1.866
347.517	5.296
765.886	0.834
295.918	3.024
442.512	0.489
213.842	0.477
403.559	230.055
261.963	0.823
252.098	1.519
384.904	31.350
727.525	2.663
269.583	1.641
354.927	13.607
584.836	0.567
595.076	2.278
383.969	13.809
692.449	1.869
392.145	61.425
293.008	4.236
412.492	106.280
256.009	1.704
552.893	0.736
406.372	3.164
386.949	4.526
407.435	2.720
333.023	7.462
388.922	96.697
181.043	0.519
445.159	1.259
229.263	0.477
244.014	1.085
404.964	1.560
385.817	7.989
415.517	6.408
309.076	9.342
399.532	3.006
460.868	0.693
322.865	114.851
246.347	0.868
574.397	2.678
193.166	1.152
722.607	1.133
313.873	0.866
428.256	0.608
563.262	1.623
418.759	6.591
278.900	1.471
235.987	5.540
232.163	0.357
430.923	2.035
288.375	2.602
149.126	3.089
152.873	0.781
319.922	7.851
228.219	1.691
248.891	0.388
238.098	1.954
346.061	2.116
331.047	3.079
234.944	2.305
307.827	2.173
421.111	25.231
377.875	4.077
194.129	0.444
379.519	16.882
356.964	16.548
374.234	7.471
626.913	2.621
293.994	8.126
371.831	28.924
131.044	1.084
342.497	6.901
352.938	97.702
351.754	77.337
788.794	1.865
274.156	6.949
368.853	65.910
361.149	12.266
719.058	0.485
218.965	0.872
271.989	5.660
559.993	0.607
299.958	5.435
145.975	1.562
735.581	2.910
212.580	2.856
400.304	81.957
200.103	1.649
390.530	21.334
393.865	282.296
553.917	1.400
277.893	3.087
338.976	31.400
230.773	0.824
338.031	24.168
333.856	9.059
640.884	1.907
367.922	90.923
350.811	171.133
156.173	0.843
297.842	1.811
283.193	2.542
301.233	24.160
304.050	1.356
298.963	0.571
274.877	1.258
349.812	160.481
405.706	5.839
311.117	20.735
245.348	1.302
281.509	9.023
222.098	3.764
225.889	3.601
356.075	33.771
364.895	7.106
276.790	1.479
498.102	1.215
END IONS